File: raw_data_output_from_cycler.csv
DataPoint,Cycle Index,Step Index,Step Type,Time(s),Total Time(s),Current(A),Voltage(V),Capacity(Ah),Spec. Cap.(mAh/g),Chg. Cap.(Ah),Chg. Spec. Cap.(mAh/g),DChg. Cap.(Ah),DChg. Spec. Cap.(mAh/g),Energy(Wh),Spec. Energy(mWh/g),Chg. Energy(Wh),Chg. Spec. Energy(mWh/g),DChg. Energy(Wh),DChg. Spec. Energy(mWh/g),Date,Power(W),dQ/dV(mAh/V),dQm/dV(mAh/V.g),Contact resistance(mO),Module start-stop switch,SOC/DOD(%),LgD,V1(V),V2(V),V3(V),T1(?),T2(?),T3(?)
1,1,1,Rest,0.0,0.0,0.0,3.8022,0.0,0.0,0.0,0.0,0.0,0.0,0.0,0.0,0.0,0.0,0.0,0.0,2024-10-23 14:51:54,0.0,0.0,0.0,0.0,Close,0.0,,0.0,0.0,0.0002,26.2,26.2,26.4
60,1,1,Rest,580.0,580.0,0.0,3.8022,0.0,0.0,0.0,0.0,0.0,0.0,0.0,0.0,0.0,0.0,0.0,0.0,2024-10-23 15:01:34,0.0,0.0,0.0,0.0,Close,0.0,,0.0,0.0001,0.0003,26.3,26.3,26.5
119,1,1,Rest,1170.0,1170.0,0.0,3.8022,0.0,0.0,0.0,0.0,0.0,0.0,0.0,0.0,0.0,0.0,0.0,0.0,2024-10-23 15:11:24,0.0,0.0,0.0,0.0,Close,0.0,,0.0,0.0,0.0003,26.3,26.3,26.5
178,1,1,Rest,1760.0,1760.0,0.0,3.8022,0.0,0.0,0.0,0.0,0.0,0.0,0.0,0.0,0.0,0.0,0.0,0.0,2024-10-23 15:21:14,0.0,0.0,0.0,0.0,Close,0.0,,0.0,0.0,0.0003,26.3,26.3,26.6
237,1,1,Rest,2350.0,2350.0,0.0,3.8022,0.0,0.0,0.0,0.0,0.0,0.0,0.0,0.0,0.0,0.0,0.0,0.0,2024-10-23 15:31:04,0.0,0.0,0.0,0.0,Close,0.0,,0.0,0.0001,0.0003,26.3,26.3,26.4
296,1,1,Rest,2940.0,2940.0,0.0,3.8022,0.0,0.0,0.0,0.0,0.0,0.0,0.0,0.0,0.0,0.0,0.0,0.0,2024-10-23 15:40:54,0.0,0.0,0.0,0.0,Close,0.0,,0.0,0.0,0.0001,26.3,26.3,26.6
355,1,1,Rest,3530.0,3530.0,0.0,3.8022,0.0,0.0,0.0,0.0,0.0,0.0,0.0,0.0,0.0,0.0,0.0,0.0,2024-10-23 15:50:44,0.0,0.0,0.0,0.0,Close,0.0,,0.0,0.0001,0.0001,26.3,26.3,26.6
414,1,1,Rest,4120.0,4120.0,0.0,3.8022,0.0,0.0,0.0,0.0,0.0,0.0,0.0,0.0,0.0,0.0,0.0,0.0,2024-10-23 16:00:34,0.0,0.0,0.0,0.0,Close,0.0,,0.0,0.0001,0.0003,26.3,26.3,26.6
473,1,1,Rest,4710.0,4710.0,0.0,3.8022,0.0,0.0,0.0,0.0,0.0,0.0,0.0,0.0,0.0,0.0,0.0,0.0,2024-10-23 16:10:24,0.0,0.0,0.0,0.0,Close,0.0,,0.0,0.0,0.0001,26.2,26.2,26.5
532,1,1,Rest,5300.0,5300.0,0.0,3.8022,0.0,0.0,0.0,0.0,0.0,0.0,0.0,0.0,0.0,0.0,0.0,0.0,2024-10-23 16:20:14,0.0,0.0,0.0,0.0,Close,0.0,,0.0,0.0001,0.0002,26.1,26.1,26.5
591,1,1,Rest,5890.0,5890.0,0.0,3.8022,0.0,0.0,0.0,0.0,0.0,0.0,0.0,0.0,0.0,0.0,0.0,0.0,2024-10-23 16:30:04,0.0,0.0,0.0,0.0,Close,0.0,,0.0,0.0,0.0002,26.2,26.2,26.5
650,1,1,Rest,6480.0,6480.0,0.0,3.8022,0.0,0.0,0.0,0.0,0.0,0.0,0.0,0.0,0.0,0.0,0.0,0.0,2024-10-23 16:39:54,0.0,0.0,0.0,0.0,Close,0.0,,0.0,0.0001,0.0003,26.2,26.2,26.5
709,1,1,Rest,7070.0,7070.0,0.0,3.8022,0.0,0.0,0.0,0.0,0.0,0.0,0.0,0.0,0.0,0.0,0.0,0.0,2024-10-23 16:49:44,0.0,0.0,0.0,0.0,Close,0.0,,0.0,0.0,0.0002,26.3,26.3,26.4
768,1,2,CCCV Chg,440.0,7640.0,2.181,3.8431,0.2666,266562.67,0.2666,266562.67,0.0,0.0,1.0213,1021338.84,1.0213,1021338.84,0.0,0.0,2024-10-23 16:59:14,8.382,12116.5,1.21165e+07,1762.05,Close,6.19,,0.0,0.0001,0.0002,26.1,26.2,26.4
827,1,2,CCCV Chg,1030.0,8230.0,2.181,3.87,0.624,623999.02,0.624,623999.02,0.0,0.0,2.3998,2399789.16,2.3998,2399789.16,0.0,0.0,2024-10-23 17:09:04,8.4403,12116.4,1.21164e+07,1774.45,Close,14.48,,0.0,-0.0001,0.0006,26.2,26.2,26.5
886,1,2,CCCV Chg,1620.0,8820.0,2.181,3.9045,0.9814,981435.11,0.9814,981435.11,0.0,0.0,3.7889,3788913.07,3.7889,3788913.07,0.0,0.0,2024-10-23 17:18:54,8.5157,8654.73,8.65473e+06,1790.23,Close,22.78,,0.0,0.0001,0.0002,26.2,26.2,26.5
945,1,2,CCCV Chg,2210.0,9410.0,2.1809,3.9366,1.3389,1338868.62,1.3389,1338868.62,0.0,0.0,5.1906,5190603.73,5.1906,5190603.73,0.0,0.0,2024-10-23 17:28:44,8.5853,12116.6,1.21166e+07,1805.03,Close,31.07,,0.0,0.0,-0.0002,26.2,26.2,26.5
1004,1,2,CCCV Chg,2800.0,10000.0,2.1809,3.9661,1.6963,1696296.53,1.6963,1696296.53,0.0,0.0,6.6028,6602839.47,6.6028,6602839.47,0.0,0.0,2024-10-23 17:38:34,8.6495,10096.9,1.00969e+07,1818.59,Close,39.37,,0.0,0.0,0.0002,26.2,26.2,26.3
1063,1,2,CCCV Chg,3390.0,10590.0,2.1809,3.9937,2.0537,2053721.24,2.0537,2053721.24,0.0,0.0,8.0257,8025671.11,8.0257,8025671.11,0.0,0.0,2024-10-23 17:48:24,8.7097,20193.8,2.01938e+07,1831.24,Close,47.67,,0.0,0.0,0.0003,26.2,26.4,26.6
1122,1,2,CCCV Chg,3980.0,11180.0,2.1808,4.0251,2.4111,2411140.62,2.4111,2411140.62,0.0,0.0,9.4579,9457873.07,9.4579,9457873.07,0.0,0.0,2024-10-23 17:58:14,8.7781,7572.0,7572000.0,1845.66,Close,55.96,,0.0,0.0,0.0003,26.6,26.6,26.7
1181,1,2,CCCV Chg,4570.0,11770.0,2.1806,4.1016,2.7685,2768541.33,2.7685,2768541.33,0.0,0.0,10.9094,10909378.84,10.9094,10909378.84,0.0,0.0,2024-10-23 18:08:03,8.9442,6057.42,6.05742e+06,1880.91,Close,64.26,,0.0,0.0,0.0002,26.2,26.2,26.5
1240,1,2,CCCV Chg,5160.0,12360.0,2.1805,4.1386,3.1259,3125914.31,3.1259,3125914.31,0.0,0.0,12.3815,12381476.98,12.3815,12381476.98,0.0,0.0,2024-10-23 18:17:53,9.0243,6730.27,6.73027e+06,1898.0,Close,72.55,,0.0,0.0,0.0002,26.1,26.1,26.3
1299,1,2,CCCV Chg,5750.0,12950.0,2.1802,4.1917,3.4833,3483255.11,3.4833,3483255.11,0.0,0.0,13.8697,13869653.33,13.8697,13869653.33,0.0,0.0,2024-10-23 18:27:43,9.1386,6729.09,6.72909e+06,1922.65,Close,80.84,,0.0,0.0,0.0002,26.1,26.1,26.4
1358,1,2,CCCV Chg,6340.0,13540.0,2.1796,4.2542,3.8405,3840535.11,3.8405,3840535.11,0.0,0.0,15.378,15377969.78,15.378,15377969.78,0.0,0.0,2024-10-23 18:37:33,9.2727,5045.93,5.04593e+06,1951.78,Close,89.14,,0.0,0.0,0.0007,26.2,26.2,26.3
1417,1,2,CCCV Chg,6930.0,14130.0,2.1786,4.338,4.1977,4197688.18,4.1977,4197688.18,0.0,0.0,16.9118,16911786.67,16.9118,16911786.67,0.0,0.0,2024-10-23 18:47:23,9.4508,4322.79,4.32279e+06,1991.18,Close,97.42,,0.0,0.0,-0.0006,26.2,26.4,26.5
1476,1,2,CCCV Chg,7085.37,14285.37,1.2058,4.35,4.2798,4279837.51,4.2798,4279837.51,0.0,0.0,17.2688,17268836.98,17.2688,17268836.98,0.0,0.0,2024-10-23 18:49:58,5.2452,0.0,0.0,3607.56,Close,99.33,,0.0,0.0001,-0.0001,26.2,26.4,26.5
1535,1,3,Rest,240.0,14642.56,0.0,4.339,0.0,0.0,0.0,0.0,0.0,0.0,0.0,0.0,0.0,0.0,0.0,0.0,2024-10-23 18:55:56,0.0,0.0,0.0,0.0,Close,0.0,,0.0,0.0,0.0001,26.3,26.3,26.6
1594,1,3,Rest,830.0,15232.56,0.0,4.3324,0.0,0.0,0.0,0.0,0.0,0.0,0.0,0.0,0.0,0.0,0.0,0.0,2024-10-23 19:05:46,0.0,0.0,0.0,0.0,Close,0.0,,0.0,0.0,0.0001,26.3,26.3,26.6
1653,1,3,Rest,1420.0,15822.56,0.0,4.3296,0.0,0.0,0.0,0.0,0.0,0.0,0.0,0.0,0.0,0.0,0.0,0.0,2024-10-23 19:15:36,0.0,0.0,0.0,0.0,Close,0.0,,0.0,0.0001,0.0003,26.2,26.2,26.6
1712,1,4,CC DChg,190.0,16392.56,-0.6545,4.3101,0.0345,34547.53,0.0,0.0,0.0345,34547.53,0.1491,149142.62,0.0,0.0,0.1491,149142.62,2024-10-23 19:25:06,-2.8211,-2597.59,-2.59759e+06,6585.03,Close,0.48,,0.0,0.0,0.0003,26.2,26.4,26.5
1771,1,4,CC DChg,780.0,16982.56,-0.6546,4.2731,0.1418,141828.94,0.0,0.0,0.1418,141828.94,0.6095,609476.76,0.0,0.0,0.6095,609476.76,2024-10-23 19:34:56,-2.7971,-3030.463,-3030462.963,6527.9,Close,1.98,,0.0,0.0,0.0002,26.3,26.3,26.6
1830,1,4,CC DChg,1370.0,17572.56,-0.6547,4.2447,0.2491,249111.31,0.0,0.0,0.2491,249111.31,1.0663,1066314.22,0.0,0.0,1.0663,1066314.22,2024-10-23 19:44:46,-2.7789,-4546.0,-4546000.0,6483.72,Close,3.47,,0.0,0.0,-0.0003,26.1,26.3,26.4
1889,1,4,CC DChg,1960.0,18162.56,-0.6546,4.2221,0.3564,356394.56,0.0,0.0,0.3564,356394.56,1.5204,1520443.56,0.0,0.0,1.5204,1520443.56,2024-10-23 19:54:36,-2.7639,-6061.26,-6.06126e+06,6449.7,Close,4.97,,0.0,0.0001,-0.0004,26.3,26.3,26.6
1948,1,4,CC DChg,2550.0,18752.56,-0.6545,4.2025,0.4637,463676.84,0.0,0.0,0.4637,463676.84,1.9723,1972325.69,0.0,0.0,1.9723,1972325.69,2024-10-23 20:04:26,-2.7506,-4545.78,-4.54578e+06,6420.83,Close,6.46,,0.0,0.0,0.0003,26.2,26.2,26.5
2007,1,4,CC DChg,3140.0,19342.56,-0.6545,4.1849,0.571,570957.56,0.0,0.0,0.571,570957.56,2.4222,2422220.27,0.0,0.0,2.4222,2422220.27,2024-10-23 20:14:16,-2.7391,-6060.89,-6.06089e+06,6393.75,Close,7.96,,0.0,0.0,0.0002,26.2,26.4,26.5
2066,1,4,CC DChg,3730.0,19932.56,-0.6546,4.1684,0.6782,678237.38,0.0,0.0,0.6782,678237.38,2.8703,2870280.0,0.0,0.0,2.8703,2870280.0,2024-10-23 20:24:06,-2.7286,-9091.78,-9.09178e+06,6367.96,Close,9.45,,0.0,0.0,0.0002,26.3,26.3,26.6
2125,1,4,CC DChg,4320.0,20522.56,-0.6546,4.1523,0.7855,785518.58,0.0,0.0,0.7855,785518.58,3.3166,3316599.47,0.0,0.0,3.3166,3316599.47,2024-10-23 20:33:56,-2.7182,-9092.0,-9092000.0,6343.07,Close,10.95,,0.0,0.0,0.0003,26.3,26.3,26.6
2184,1,4,CC DChg,4910.0,21112.56,-0.6546,4.1365,0.8928,892800.09,0.0,0.0,0.8928,892800.09,3.7612,3761213.16,0.0,0.0,3.7612,3761213.16,2024-10-23 20:43:46,-2.7079,-6061.037,-6061037.037,6318.84,Close,12.44,,0.0,0.0,0.0002,26.3,26.3,26.5
2243,1,4,CC DChg,5500.0,21702.56,-0.6547,4.1208,1.0001,1000082.67,0.0,0.0,1.0001,1000082.67,4.2041,4204141.87,0.0,0.0,4.2041,4204141.87,2024-10-23 20:53:36,-2.6978,-6061.33,-6.06133e+06,6294.28,Close,13.94,,0.0,0.0,0.0009,26.3,26.3,26.6
2302,1,4,CC DChg,6090.0,22292.56,-0.6546,4.1054,1.1074,1107364.53,0.0,0.0,1.1074,1107364.53,4.6454,4645400.18,0.0,0.0,4.6454,4645400.18,2024-10-23 21:03:26,-2.6873,-6061.037,-6.06104e+06,6271.81,Close,15.43,,0.0,0.0,0.0009,26.3,26.3,26.7
2361,1,4,CC DChg,6680.0,22882.56,-0.6546,4.0907,1.2146,1214644.44,0.0,0.0,1.2146,1214644.44,5.085,5085030.04,0.0,0.0,5.085,5085030.04,2024-10-23 21:13:16,-2.6777,-9091.11,-9.09111e+06,6249.26,Close,16.93,,0.0,0.0,0.0003,26.3,26.3,26.7
2420,1,4,CC DChg,7270.0,23472.56,-0.6546,4.0785,1.3219,1321923.2,0.0,0.0,1.3219,1321923.2,5.5232,5523170.49,0.0,0.0,5.5232,5523170.49,2024-10-23 21:23:06,-2.6699,-18183.1,-1.81831e+07,6230.24,Close,18.42,,0.0,0.0,0.0001,26.3,26.5,26.6
2479,1,4,CC DChg,7860.0,24062.56,-0.6545,4.0707,1.4292,1429201.96,0.0,0.0,1.4292,1429201.96,5.9603,5960292.27,0.0,0.0,5.9603,5960292.27,2024-10-23 21:32:56,-2.6644,-18183.1,-1.81831e+07,6219.27,Close,19.92,,0.0,0.0,0.0003,26.3,26.3,26.7
2538,1,4,CC DChg,8450.0,24652.56,-0.6547,4.0566,1.5365,1536481.78,0.0,0.0,1.5365,1536481.78,6.3963,6396332.09,0.0,0.0,6.3963,6396332.09,2024-10-23 21:42:46,-2.6557,-6061.037,-6.06104e+06,6196.4,Close,21.41,,0.0,0.0,0.0001,26.3,26.3,26.7
2597,1,4,CC DChg,9040.0,25242.56,-0.6545,4.031,1.6438,1643761.42,0.0,0.0,1.6438,1643761.42,6.8302,6830216.53,0.0,0.0,6.8302,6830216.53,2024-10-23 21:52:36,-2.6385,-3636.62,-3.63662e+06,6158.43,Close,22.91,,0.0,0.0,0.0009,26.2,26.2,26.5
2656,1,4,CC DChg,9630.0,25832.56,-0.6546,4.0064,1.751,1751043.02,0.0,0.0,1.751,1751043.02,7.2613,7261291.38,0.0,0.0,7.2613,7261291.38,2024-10-23 22:02:26,-2.6227,-4545.78,-4.54578e+06,6120.0,Close,24.4,,0.0,0.0001,0.0003,26.2,26.4,26.5
2715,1,4,CC DChg,10220.0,26422.56,-0.6546,3.9891,1.8583,1858324.98,0.0,0.0,1.8583,1858324.98,7.6901,7690122.67,0.0,0.0,7.6901,7690122.67,2024-10-23 22:12:16,-2.6112,-9090.67,-9.09067e+06,6094.14,Close,25.9,,0.0,0.0,0.0003,26.2,26.2,26.5
2774,1,4,CC DChg,10810.0,27012.56,-0.6546,3.9766,1.9656,1965606.04,0.0,0.0,1.9656,1965606.04,8.1174,8117375.29,0.0,0.0,8.1174,8117375.29,2024-10-23 22:22:06,-2.603,-9091.56,-9.09156e+06,6075.04,Close,27.39,,0.0,0.0,0.0007,26.2,26.2,26.5
2833,1,4,CC DChg,11400.0,27602.56,-0.6546,3.9674,2.0729,2072886.76,0.0,0.0,2.0729,2072886.76,8.5435,8543470.22,0.0,0.0,8.5435,8543470.22,2024-10-23 22:31:56,-2.5969,-18184.9,-1.81849e+07,6061.17,Close,28.89,,0.0,0.0,0.0,26.1,26.1,26.4
2892,1,4,CC DChg,11990.0,28192.56,-0.6547,3.9599,2.1802,2180166.93,0.0,0.0,2.1802,2180166.93,8.9687,8968676.98,0.0,0.0,8.9687,8968676.98,2024-10-23 22:41:46,-2.5923,-18184.9,-1.81849e+07,6048.88,Close,30.38,,0.0,0.0,0.0003,26.2,26.2,26.5
2951,1,4,CC DChg,12580.0,28782.56,-0.6546,3.9521,2.2874,2287445.16,0.0,0.0,2.2874,2287445.16,9.3931,9393088.0,0.0,0.0,9.3931,9393088.0,2024-10-23 22:51:36,-2.587,-9089.78,-9.08978e+06,6037.52,Close,31.88,,0.0,0.0,0.0003,26.1,26.3,26.5
3010,1,4,CC DChg,13170.0,29372.56,-0.6546,3.9425,2.3947,2394721.6,0.0,0.0,2.3947,2394721.6,9.8166,9816560.36,0.0,0.0,9.8166,9816560.36,2024-10-23 23:01:26,-2.5807,-9089.78,-9.08978e+06,6022.85,Close,33.37,,0.0,0.0,0.0003,26.3,26.5,26.6
3069,1,4,CC DChg,13760.0,29962.56,-0.6546,3.9318,2.502,2501999.47,0.0,0.0,2.502,2501999.47,10.2389,10238939.02,0.0,0.0,10.2389,10238939.02,2024-10-23 23:11:16,-2.5738,-9093.33,-9.09333e+06,6006.23,Close,34.87,,0.0,0.0,0.0004,26.4,26.4,26.5
3128,1,4,CC DChg,14350.0,30552.56,-0.6546,3.9206,2.6093,2609277.16,0.0,0.0,2.6093,2609277.16,10.6601,10660136.53,0.0,0.0,10.6601,10660136.53,2024-10-23 23:21:06,-2.5666,-9091.56,-9.09156e+06,5988.94,Close,36.36,,0.0,0.0001,-0.0002,26.2,26.4,26.5
3187,1,4,CC DChg,14940.0,31142.56,-0.6546,3.9089,2.7166,2716555.02,0.0,0.0,2.7166,2716555.02,11.0801,11080106.67,0.0,0.0,11.0801,11080106.67,2024-10-23 23:30:56,-2.5589,-9093.33,-9.09333e+06,5971.16,Close,37.86,,0.0,0.0,0.0002,26.2,26.4,26.5
3246,1,4,CC DChg,15530.0,31732.56,-0.6546,3.8968,2.8238,2823832.53,0.0,0.0,2.8238,2823832.53,11.4988,11498797.51,0.0,0.0,11.4988,11498797.51,2024-10-23 23:40:46,-2.5507,-9091.56,-9.09156e+06,5953.31,Close,39.35,,0.0,0.0,0.0002,26.2,26.4,26.5
3305,1,4,CC DChg,16120.0,32322.56,-0.6546,3.8844,2.9311,2931111.47,0.0,0.0,2.9311,2931111.47,11.9162,11916177.78,0.0,0.0,11.9162,11916177.78,2024-10-23 23:50:36,-2.5426,-9093.33,-9.09333e+06,5934.28,Close,40.85,,0.0,0.0,0.0002,26.4,26.3,26.5
3364,1,4,CC DChg,16710.0,32912.56,-0.6546,3.8723,3.0384,3038388.62,0.0,0.0,3.0384,3038388.62,12.3322,12332233.96,0.0,0.0,12.3322,12332233.96,2024-10-24 00:00:25,-2.5347,-6061.037,-6061037.037,5915.88,Close,42.34,,0.0,0.0001,0.0003,26.3,26.3,26.6
3423,1,4,CC DChg,17300.0,33502.56,-0.6545,3.8613,3.1457,3145666.13,0.0,0.0,3.1457,3145666.13,12.747,12747046.4,0.0,0.0,12.747,12747046.4,2024-10-24 00:10:15,-2.5274,-9089.78,-9.08978e+06,5899.17,Close,43.84,,0.0,0.0,0.0002,26.2,26.2,26.6
3482,1,4,CC DChg,17890.0,34092.56,-0.6546,3.8514,3.2529,3252943.64,0.0,0.0,3.2529,3252943.64,13.1607,13160733.87,0.0,0.0,13.1607,13160733.87,2024-10-24 00:20:05,-2.521,-9091.56,-9.09156e+06,5883.95,Close,45.33,,0.0,0.0,0.0003,26.2,26.4,26.5
3541,1,4,CC DChg,18480.0,34682.56,-0.6546,3.8425,3.3602,3360221.16,0.0,0.0,3.3602,3360221.16,13.5734,13573417.24,0.0,0.0,13.5734,13573417.24,2024-10-24 00:29:55,-2.5155,-9089.78,-9.08978e+06,5869.64,Close,46.83,,0.0,0.0,0.0008,26.2,26.2,26.5
3600,1,4,CC DChg,19070.0,35272.56,-0.6546,3.8344,3.4675,3467496.89,0.0,0.0,3.4675,3467496.89,13.9852,13985183.29,0.0,0.0,13.9852,13985183.29,2024-10-24 00:39:45,-2.5101,-18179.6,-1.81796e+07,5857.44,Close,48.32,,0.0,0.0001,-0.0003,26.2,26.2,26.6
3659,1,4,CC DChg,19660.0,35862.56,-0.6546,3.8269,3.5748,3574774.04,0.0,0.0,3.5748,3574774.04,14.3961,14396117.33,0.0,0.0,14.3961,14396117.33,2024-10-24 00:49:35,-2.5052,-9091.56,-9.09156e+06,5845.99,Close,49.82,,0.0,0.0001,0.0,26.2,26.2,26.6
3718,1,4,CC DChg,20250.0,36452.56,-0.6545,3.8201,3.682,3682049.42,0.0,0.0,3.682,3682049.42,14.8063,14806283.38,0.0,0.0,14.8063,14806283.38,2024-10-24 00:59:25,-2.5001,-18179.6,-1.81796e+07,5837.12,Close,51.31,,0.0,0.0,0.0003,26.2,26.3,26.5
3777,1,4,CC DChg,20840.0,37042.56,-0.6545,3.8138,3.7893,3789325.16,0.0,0.0,3.7893,3789325.16,15.2157,15215746.84,0.0,0.0,15.2157,15215746.84,2024-10-24 01:09:15,-2.4962,-18179.6,-1.81796e+07,5826.87,Close,52.81,,0.0,0.0,0.0003,26.3,26.3,26.6
3836,1,4,CC DChg,21430.0,37632.56,-0.6546,3.808,3.8966,3896602.31,0.0,0.0,3.8966,3896602.31,15.6246,15624563.2,0.0,0.0,15.6246,15624563.2,2024-10-24 01:19:05,-2.4926,-18183.1,-1.81831e+07,5817.65,Close,54.3,,0.0,0.0,0.0003,26.1,26.1,26.5
3895,1,4,CC DChg,22020.0,38222.56,-0.6545,3.8027,4.0039,4003879.82,0.0,0.0,4.0039,4003879.82,16.0328,16032787.91,0.0,0.0,16.0328,16032787.91,2024-10-24 01:28:55,-2.489,0.0,0.0,5809.82,Close,55.8,,0.0,0.0,0.0004,26.2,26.4,26.5
3954,1,4,CC DChg,22610.0,38812.56,-0.6546,3.7976,4.1112,4111158.4,0.0,0.0,4.1112,4111158.4,16.4405,16440457.96,0.0,0.0,16.4405,16440457.96,2024-10-24 01:38:45,-2.4861,-18179.6,-1.81796e+07,5801.05,Close,57.29,,0.0,0.0,0.0002,26.2,26.2,26.6
4013,1,4,CC DChg,23200.0,39402.56,-0.6546,3.793,4.2184,4218436.27,0.0,0.0,4.2184,4218436.27,16.8476,16847606.04,0.0,0.0,16.8476,16847606.04,2024-10-24 01:48:35,-2.4828,-18183.1,-1.81831e+07,5794.56,Close,58.78,,0.0,0.0,0.0009,26.2,26.2,26.5
4072,1,4,CC DChg,23790.0,39992.56,-0.6546,3.7886,4.3257,4325715.56,0.0,0.0,4.3257,4325715.56,17.2543,17254280.53,0.0,0.0,17.2543,17254280.53,2024-10-24 01:58:25,-2.4801,-18183.1,-1.81831e+07,5787.57,Close,60.28,,0.0,0.0,-0.0001,26.2,26.2,26.5
4131,1,4,CC DChg,24380.0,40582.56,-0.6546,3.7846,4.433,4432993.42,0.0,0.0,4.433,4432993.42,17.6605,17660492.8,0.0,0.0,17.6605,17660492.8,2024-10-24 02:08:15,-2.4773,0.0,0.0,5781.72,Close,61.77,,0.0,0.0,0.0003,26.2,26.2,26.5
4190,1,4,CC DChg,24970.0,41172.56,-0.6546,3.7807,4.5403,4540271.29,0.0,0.0,4.5403,4540271.29,18.0663,18066284.09,0.0,0.0,18.0663,18066284.09,2024-10-24 02:18:05,-2.4747,-18186.7,-1.81867e+07,5775.94,Close,63.27,,0.0,0.0,0.0002,26.3,26.3,26.6
4249,1,4,CC DChg,25560.0,41762.56,-0.6546,3.7771,4.6476,4647551.64,0.0,0.0,4.6476,4647551.64,18.4717,18471684.27,0.0,0.0,18.4717,18471684.27,2024-10-24 02:27:55,-2.4725,0.0,0.0,5770.18,Close,64.76,,0.0,0.0,0.0002,26.4,26.4,26.5
4308,1,4,CC DChg,26150.0,42352.56,-0.6546,3.7737,4.7548,4754830.93,0.0,0.0,4.7548,4754830.93,18.8767,18876708.98,0.0,0.0,18.8767,18876708.98,2024-10-24 02:37:45,-2.4702,-18183.1,-1.81831e+07,5764.98,Close,66.26,,0.0,0.0,0.0003,26.3,26.3,26.6
4367,1,4,CC DChg,26740.0,42942.56,-0.6545,3.7707,4.8621,4862109.87,0.0,0.0,4.8621,4862109.87,19.2814,19281383.82,0.0,0.0,19.2814,19281383.82,2024-10-24 02:47:35,-2.468,0.0,0.0,5761.02,Close,67.75,,0.0,0.0,0.0003,26.2,26.4,26.6
4426,1,4,CC DChg,27330.0,43532.56,-0.6546,3.7678,4.9694,4969388.8,0.0,0.0,4.9694,4969388.8,19.6857,19685747.2,0.0,0.0,19.6857,19685747.2,2024-10-24 02:57:25,-2.4664,-18183.1,-1.81831e+07,5755.97,Close,69.25,,0.0,0.0001,-0.0005,26.2,26.4,26.5
4485,1,4,CC DChg,27920.0,44122.56,-0.6545,3.7648,5.0767,5076668.44,0.0,0.0,5.0767,5076668.44,20.0898,20089797.69,0.0,0.0,20.0898,20089797.69,2024-10-24 03:07:15,-2.4642,-18183.1,-1.81831e+07,5751.91,Close,70.74,,0.0,0.0,0.0002,26.3,26.4,26.8
4544,1,4,CC DChg,28510.0,44712.56,-0.6546,3.7616,5.1839,5183947.38,0.0,0.0,5.1839,5183947.38,20.4935,20493518.22,0.0,0.0,20.4935,20493518.22,2024-10-24 03:17:05,-2.4622,0.0,0.0,5746.67,Close,72.24,,0.0,0.0001,0.0002,26.3,26.5,26.6
4603,1,4,CC DChg,29100.0,45302.56,-0.6545,3.7576,5.2912,5291225.96,0.0,0.0,5.2912,5291225.96,20.8969,20896850.49,0.0,0.0,20.8969,20896850.49,2024-10-24 03:26:55,-2.4593,0.0,0.0,5741.18,Close,73.73,,0.0,0.0,0.0003,26.5,26.5,26.8
4662,1,4,CC DChg,29690.0,45892.56,-0.6546,3.7524,5.3985,5398504.89,0.0,0.0,5.3985,5398504.89,21.2997,21299689.24,0.0,0.0,21.2997,21299689.24,2024-10-24 03:36:45,-2.4562,-18186.7,-1.81867e+07,5732.71,Close,75.23,,0.0,0.0,0.0002,26.3,26.3,26.7
4721,1,4,CC DChg,30280.0,46482.56,-0.6546,3.7464,5.5058,5505783.82,0.0,0.0,5.5058,5505783.82,21.7019,21701926.4,0.0,0.0,21.7019,21701926.4,2024-10-24 03:46:35,-2.4523,-9088.0,-9088000.0,5723.36,Close,76.72,,0.0,0.0,0.0002,26.5,26.5,26.8
4780,1,4,CC DChg,30870.0,47072.56,-0.6545,3.7413,5.6131,5613062.76,0.0,0.0,5.6131,5613062.76,22.1036,22103554.84,0.0,0.0,22.1036,22103554.84,2024-10-24 03:56:25,-2.4487,-18190.2,-1.81902e+07,5716.18,Close,78.22,,0.0,0.0001,-0.0001,26.3,26.5,26.8
4839,1,4,CC DChg,31460.0,47662.56,-0.6546,3.7365,5.7203,5720338.84,0.0,0.0,5.7203,5720338.84,22.5047,22504662.76,0.0,0.0,22.5047,22504662.76,2024-10-24 04:06:15,-2.4459,-9091.56,-9.09156e+06,5708.15,Close,79.71,,0.0,0.0,0.0002,26.3,26.5,26.8
4898,1,4,CC DChg,32050.0,48252.56,-0.6546,3.7309,5.8276,5827613.16,0.0,0.0,5.8276,5827613.16,22.9052,22905206.04,0.0,0.0,22.9052,22905206.04,2024-10-24 04:16:05,-2.4421,0.0,0.0,5699.77,Close,81.21,,0.0,0.0,0.0002,26.3,26.5,26.9
4957,1,4,CC DChg,32640.0,48842.56,-0.6546,3.7235,5.9349,5934888.18,0.0,0.0,5.9349,5934888.18,23.305,23305048.18,0.0,0.0,23.305,23305048.18,2024-10-24 04:25:55,-2.4374,-18183.1,-1.81831e+07,5688.29,Close,82.7,,0.0,0.0001,0.0002,26.3,26.5,26.8
5016,1,4,CC DChg,33230.0,49432.56,-0.6546,3.7156,6.0422,6042163.91,0.0,0.0,6.0422,6042163.91,23.7041,23704055.47,0.0,0.0,23.7041,23704055.47,2024-10-24 04:35:45,-2.4322,-18190.2,-1.81902e+07,5676.22,Close,84.2,,0.0,0.0,0.0009,26.4,26.4,26.7
5075,1,4,CC DChg,33820.0,50022.56,-0.6546,3.7083,6.1494,6149440.0,0.0,0.0,6.1494,6149440.0,24.1023,24102263.47,0.0,0.0,24.1023,24102263.47,2024-10-24 04:45:35,-2.4273,-9088.0,-9088000.0,5665.33,Close,85.69,,0.0,0.0001,0.0003,26.3,26.3,26.7
5134,1,4,CC DChg,34410.0,50612.56,-0.6546,3.6988,6.2567,6256717.51,0.0,0.0,6.2567,6256717.51,24.4996,24499612.44,0.0,0.0,24.4996,24499612.44,2024-10-24 04:55:25,-2.4212,-9091.56,-9.09156e+06,5650.56,Close,87.19,,0.0,0.0,0.0002,26.5,26.5,26.6
5193,1,4,CC DChg,35000.0,51202.56,-0.6545,3.6878,6.364,6363993.6,0.0,0.0,6.364,6363993.6,24.8957,24895741.16,0.0,0.0,24.8957,24895741.16,2024-10-24 05:05:15,-2.4138,-18183.1,-1.81831e+07,5634.27,Close,88.68,,0.0,0.0,0.0002,26.4,26.4,26.6
5252,1,4,CC DChg,35590.0,51792.56,-0.6546,3.6846,6.4713,6471271.11,0.0,0.0,6.4713,6471271.11,25.2912,25291167.29,0.0,0.0,25.2912,25291167.29,2024-10-24 05:15:05,-2.4119,0.0,0.0,5628.95,Close,90.18,,0.0,0.0001,0.0002,26.3,26.5,26.6
5311,1,4,CC DChg,36180.0,52382.56,-0.6546,3.6815,6.5785,6578548.62,0.0,0.0,6.5785,6578548.62,25.6863,25686283.38,0.0,0.0,25.6863,25686283.38,2024-10-24 05:24:55,-2.4101,0.0,0.0,5623.7,Close,91.67,,0.0,0.0,0.0008,26.4,26.4,26.6
5370,1,4,CC DChg,36770.0,52972.56,-0.6546,3.6754,6.6858,6685826.13,0.0,0.0,6.6858,6685826.13,26.081,26080952.89,0.0,0.0,26.081,26080952.89,2024-10-24 05:34:45,-2.406,-9088.0,-9088000.0,5614.47,Close,93.17,,0.0,0.0,0.0003,26.4,26.4,26.7
5429,1,4,CC DChg,37360.0,53562.56,-0.6546,3.6472,6.7931,6793103.64,0.0,0.0,6.7931,6793103.64,26.4742,26474157.51,0.0,0.0,26.4742,26474157.51,2024-10-24 05:44:35,-2.3873,-2020.35,-2020345.679,5571.9,Close,94.66,,0.0,0.0,0.0,26.4,26.4,26.8
5488,1,4,CC DChg,37950.0,54152.56,-0.6546,3.5803,6.9004,6900379.73,0.0,0.0,6.9004,6900379.73,26.8621,26862054.4,0.0,0.0,26.8621,26862054.4,2024-10-24 05:54:25,-2.3436,-1298.79,-1.29879e+06,5469.61,Close,96.16,,0.0,0.0,0.0003,26.5,26.5,26.8
5547,1,4,CC DChg,38540.0,54742.56,-0.6546,3.4823,7.0077,7007654.4,0.0,0.0,7.0077,7007654.4,27.2413,27241250.13,0.0,0.0,27.2413,27241250.13,2024-10-24 06:04:15,-2.2794,-908.4444,-908444,5319.98,Close,97.65,,0.0,0.0,0.0003,26.4,26.4,26.9
5606,1,4,CC DChg,39130.0,55332.56,-0.6546,3.3079,7.1149,7114930.49,0.0,0.0,7.1149,7114930.49,27.6066,27606641.78,0.0,0.0,27.6066,27606641.78,2024-10-24 06:14:05,-2.1652,-403.9111,-403911,5053.62,Close,99.15,,0.0,0.0,0.0003,26.6,26.4,26.8
5665,1,5,Rest,210.0,55878.72,0.0,3.1087,0.0,0.0,0.0,0.0,0.0,0.0,0.0,0.0,0.0,0.0,0.0,0.0,2024-10-24 06:23:11,0.0,0.0,0.0,0.0,Close,0.0,,0.0,0.0,0.0002,26.4,26.4,26.8
5724,1,5,Rest,800.0,56468.72,0.0,3.1782,0.0,0.0,0.0,0.0,0.0,0.0,0.0,0.0,0.0,0.0,0.0,0.0,2024-10-24 06:33:01,0.0,0.0,0.0,0.0,Close,0.0,,0.0,0.0,0.0001,26.2,26.4,26.5
5783,1,5,Rest,1390.0,57058.72,0.0,3.2062,0.0,0.0,0.0,0.0,0.0,0.0,0.0,0.0,0.0,0.0,0.0,0.0,2024-10-24 06:42:51,0.0,0.0,0.0,0.0,Close,0.0,,0.0,0.0,0.0002,26.2,26.2,26.6
5842,1,6,CCCV Chg,120.0,57588.72,2.1811,3.4327,0.0727,72701.27,0.0727,72701.27,0.0,0.0,0.2437,243680.91,0.2437,243680.91,0.0,0.0,2024-10-24 06:51:41,7.487,576.9926,576993,1573.86,Close,0.99,,0.0,0.0,0.0003,25.9,25.9,26.2
5901,1,6,CCCV Chg,710.0,58178.72,2.181,3.7109,0.4301,430147.07,0.4301,430147.07,0.0,0.0,1.5331,1533073.24,1.5331,1533073.24,0.0,0.0,2024-10-24 07:01:31,8.0934,5507.596,5.5076e+06,1701.48,Close,5.87,,0.0,0.0,0.0002,25.5,25.5,25.8
5960,1,6,CCCV Chg,1300.0,58768.72,2.1811,3.7311,0.7876,787594.93,0.7876,787594.93,0.0,0.0,2.8632,2863156.98,2.8632,2863156.98,0.0,0.0,2024-10-24 07:11:21,8.138,12117,1.2117e+07,1710.63,Close,10.75,,0.0,0.0001,0.0004,25.8,25.8,25.9
6019,1,6,CCCV Chg,1890.0,59358.72,2.1811,3.7655,1.145,1145041.51,1.145,1145041.51,0.0,0.0,4.2028,4202829.51,4.2028,4202829.51,0.0,0.0,2024-10-24 07:21:11,8.2127,10097.3,1.00973e+07,1726.46,Close,15.63,,0.0,0.0,-0.0005,25.7,25.7,25.9
6078,1,6,CCCV Chg,2480.0,59948.72,2.1809,3.7921,1.5025,1502487.29,1.5025,1502487.29,0.0,0.0,5.5537,5553662.22,5.5537,5553662.22,0.0,0.0,2024-10-24 07:31:01,8.2701,12117,1.2117e+07,1738.79,Close,20.51,,0.0,0.0,0.0002,25.7,25.8,25.9
6137,1,6,CCCV Chg,3070.0,60538.72,2.181,3.8089,1.8599,1859932.62,1.8599,1859932.62,0.0,0.0,6.9126,6912612.98,6.9126,6912612.98,0.0,0.0,2024-10-24 07:40:51,8.3072,30291.6,3.02916e+07,1746.4,Close,25.39,,0.0,0.0001,0.0001,25.9,25.9,26.0
6196,1,6,CCCV Chg,3660.0,61128.72,2.181,3.8138,2.2174,2217377.42,2.2174,2217377.42,0.0,0.0,8.2751,8275136.71,8.2751,8275136.71,0.0,0.0,2024-10-24 07:50:41,8.3178,60584.9,6.05849e+07,1748.67,Close,30.27,,0.0,0.0,0.0003,25.9,25.9,26.0
6255,1,6,CCCV Chg,4250.0,61718.72,2.181,3.8193,2.5748,2574820.27,2.5748,2574820.27,0.0,0.0,9.6392,9639239.82,9.6392,9639239.82,0.0,0.0,2024-10-24 08:00:31,8.3298,60583.1,60583111.111,1751.19,Close,35.15,,0.0,0.0,0.0003,25.9,25.9,26.2
6314,1,6,CCCV Chg,4840.0,62308.72,2.181,3.8294,2.9323,2932264.53,2.9323,2932264.53,0.0,0.0,11.0061,11006077.87,11.0061,11006077.87,0.0,0.0,2024-10-24 08:10:21,8.352,30292.4,3.02924e+07,1755.79,Close,40.03,,0.0,0.0001,0.0002,26.1,26.1,26.4
6373,1,6,CCCV Chg,5430.0,62898.72,2.181,3.8453,3.2897,3289707.38,3.2897,3289707.38,0.0,0.0,12.3775,12377521.78,12.3775,12377521.78,0.0,0.0,2024-10-24 08:20:11,8.3865,15145.8,1.51458e+07,1763.11,Close,44.91,,0.0,0.0,0.0002,26.2,26.2,26.3
6432,1,6,CCCV Chg,6020.0,63488.72,2.181,3.8682,3.6472,3647153.07,3.6472,3647153.07,0.0,0.0,13.7558,13755834.31,13.7558,13755834.31,0.0,0.0,2024-10-24 08:30:01,8.4367,12117.3,1.21173e+07,1773.56,Close,49.79,,0.0,0.0001,0.0002,26.3,26.3,26.4
6491,1,6,CCCV Chg,6610.0,64078.72,2.1811,3.9017,4.0046,4004595.2,4.0046,4004595.2,0.0,0.0,15.1441,15144091.02,15.1441,15144091.02,0.0,0.0,2024-10-24 08:39:51,8.5098,8655.24,8.65524e+06,1788.91,Close,54.67,,0.0,0.0001,0.0002,26.1,26.3,26.5
6550,1,6,CCCV Chg,7200.0,64668.72,2.181,3.9343,4.362,4362035.91,4.362,4362035.91,0.0,0.0,16.545,16544954.31,16.545,16544954.31,0.0,0.0,2024-10-24 08:49:41,8.5808,12115.9,1.21159e+07,1803.87,Close,59.55,,0.0,0.0,0.0002,26.1,26.3,26.4
6609,1,6,CCCV Chg,7790.0,65258.72,2.1809,3.9636,4.7195,4719472.71,4.7195,4719472.71,0.0,0.0,17.9563,17956342.04,17.9563,17956342.04,0.0,0.0,2024-10-24 08:59:31,8.6443,10097.2,1.00972e+07,1817.39,Close,64.43,,0.0,0.0001,0.0002,26.2,26.2,26.3
6668,1,6,CCCV Chg,8380.0,65848.72,2.1809,3.9916,5.0769,5076903.47,5.0769,5076903.47,0.0,0.0,19.3783,19378346.67,19.3783,19378346.67,0.0,0.0,2024-10-24 09:09:20,8.7054,15145.8,1.51458e+07,1830.24,Close,69.31,,0.0,0.0,0.0002,26.4,26.4,26.7
6727,1,6,CCCV Chg,8970.0,66438.72,2.1808,4.0225,5.4343,5434329.96,5.4343,5434329.96,0.0,0.0,20.8098,20809755.02,20.8098,20809755.02,0.0,0.0,2024-10-24 09:19:10,8.7723,7572.0,7572000.0,1844.49,Close,74.19,,0.0,0.0001,-0.0003,26.4,26.4,26.7
6786,1,6,CCCV Chg,9560.0,67028.72,2.1807,4.0987,5.7917,5791737.6,5.7917,5791737.6,0.0,0.0,22.2601,22260148.62,22.2601,22260148.62,0.0,0.0,2024-10-24 09:29:00,8.9379,5506.26,5.50626e+06,1879.56,Close,79.07,,0.0,0.0,0.0002,26.0,26.2,26.4
6845,1,6,CCCV Chg,10150.0,67618.72,2.1805,4.1359,6.1491,6149116.44,6.1491,6149116.44,0.0,0.0,23.7314,23731404.8,23.7314,23731404.8,0.0,0.0,2024-10-24 09:38:50,9.0185,7571.56,7.57156e+06,1896.73,Close,83.95,,0.0,0.0001,0.0001,26.0,26.0,26.2
6904,1,6,CCCV Chg,10740.0,68208.72,2.1803,4.189,6.5065,6506464.0,6.5065,6506464.0,0.0,0.0,25.2186,25218648.18,25.2186,25218648.18,0.0,0.0,2024-10-24 09:48:40,9.1331,6056.53,6.05653e+06,1921.33,Close,88.83,,0.0,0.0001,0.0004,26.0,26.0,26.3
6963,1,6,CCCV Chg,11330.0,68798.72,2.1798,4.2519,6.8638,6863751.11,6.8638,6863751.11,0.0,0.0,26.7261,26726081.42,26.7261,26726081.42,0.0,0.0,2024-10-24 09:58:30,9.2682,5045.93,5.04593e+06,1950.62,Close,93.71,,0.0,0.0,0.0001,26.2,26.2,26.6
7022,1,6,CCCV Chg,11920.0,69388.72,2.1785,4.3384,7.2209,7220905.96,7.2209,7220905.96,0.0,0.0,28.2595,28259521.42,28.2595,28259521.42,0.0,0.0,2024-10-24 10:08:20,9.4513,4034.37,4.03437e+06,1991.44,Close,98.59,,0.0,0.0,0.0008,26.1,26.3,26.4
7081,1,6,CCCV Chg,12067.32,69536.04,1.1953,4.35,7.2986,7298649.6,7.2986,7298649.6,0.0,0.0,28.5974,28597430.04,28.5974,28597430.04,0.0,0.0,2024-10-24 10:10:47,5.1994,0.0,0.0,3639.35,Close,99.65,,0.0,0.0,0.0002,26.0,26.0,26.4
7140,1,7,Rest,250.0,69891.41,0.0,4.3395,0.0,0.0,0.0,0.0,0.0,0.0,0.0,0.0,0.0,0.0,0.0,0.0,2024-10-24 10:16:43,0.0,0.0,0.0,0.0,Close,0.0,,0.0,0.0,0.0003,26.3,26.3,26.6
7199,1,7,Rest,840.0,70481.41,0.0,4.3339,0.0,0.0,0.0,0.0,0.0,0.0,0.0,0.0,0.0,0.0,0.0,0.0,2024-10-24 10:26:33,0.0,0.0,0.0,0.0,Close,0.0,,0.0,0.0,0.0002,26.3,26.1,26.4
7258,1,7,Rest,1430.0,71071.41,0.0,4.3314,0.0,0.0,0.0,0.0,0.0,0.0,0.0,0.0,0.0,0.0,0.0,0.0,2024-10-24 10:36:23,0.0,0.0,0.0,0.0,Close,0.0,,0.0,0.0,0.0002,26.3,26.3,26.4
7317,1,8,CC DChg,180.0,71621.41,-6.5501,4.1902,0.3275,327510.38,0.0,0.0,0.3275,327510.38,1.3866,1386623.47,0.0,0.0,1.3866,1386623.47,2024-10-24 10:45:33,-27.4464,-5054.1,-5.0541e+06,639.71,Close,4.52,,0.0,0.0,0.0003,26.4,26.6,26.8
7376,1,8,CC DChg,770.0,72211.41,-6.55,4.0326,1.401,1401003.02,0.0,0.0,1.401,1401003.02,5.7938,5793815.47,0.0,0.0,5.7938,5793815.47,2024-10-24 10:55:23,-26.4137,-10108.1,-1.01081e+07,615.66,Close,19.35,,0.0,0.0,0.0009,27.4,27.4,27.7
7435,1,8,CC DChg,1360.0,72801.41,-6.55,3.8842,2.4745,2474492.98,0.0,0.0,2.4745,2474492.98,10.0322,10032245.33,0.0,0.0,10.0322,10032245.33,2024-10-24 11:05:13,-25.4415,-10108.1,-1.01081e+07,593.01,Close,34.18,,0.0,0.0,0.0003,26.4,26.6,26.7
7494,1,8,CC DChg,1950.0,73391.41,-6.5501,3.7928,3.548,3547980.44,0.0,0.0,3.548,3547980.44,14.1496,14149585.07,0.0,0.0,14.1496,14149585.07,2024-10-24 11:15:03,-24.8432,-13996.3,-1.39963e+07,579.04,Close,49.01,,0.0,0.0,0.0001,27.2,27.0,27.3
7553,1,8,CC DChg,2540.0,73981.41,-6.5501,3.7346,4.6215,4621465.96,0.0,0.0,4.6215,4621465.96,18.1873,18187261.16,0.0,0.0,18.1873,18187261.16,2024-10-24 11:24:53,-24.462,-25992.127,-2.59921e+07,570.16,Close,63.84,,0.0,0.0,0.0002,27.3,27.3,27.6
7612,1,8,CC DChg,3130.0,74571.41,-6.5502,3.6962,5.695,5694952.18,0.0,0.0,5.695,5694952.18,22.1768,22176782.22,0.0,0.0,22.1768,22176782.22,2024-10-24 11:34:43,-24.2107,-22743.6,-2.27436e+07,564.29,Close,78.66,,0.0,0.0,0.0002,28.1,28.3,28.4
7671,1,8,CC DChg,3720.0,75161.41,-6.5501,3.6214,6.7684,6768438.04,0.0,0.0,6.7684,6768438.04,26.1087,26108708.98,0.0,0.0,26.1087,26108708.98,2024-10-24 11:44:33,-23.7204,-5869.42,-5.86942e+06,552.88,Close,93.49,,0.0,0.0,0.0004,28.4,28.6,28.7
7730,1,9,Rest,90.0,75510.39,0.0,3.1749,0.0,0.0,0.0,0.0,0.0,0.0,0.0,0.0,0.0,0.0,0.0,0.0,2024-10-24 11:50:22,0.0,0.0,0.0,0.0,Close,0.0,,0.0,0.0,0.0003,28.4,28.5,28.7
7789,1,9,Rest,680.0,76100.39,0.0,3.2702,0.0,0.0,0.0,0.0,0.0,0.0,0.0,0.0,0.0,0.0,0.0,0.0,2024-10-24 12:00:12,0.0,0.0,0.0,0.0,Close,0.0,,0.0,0.0,0.0009,26.6,26.6,26.7
7848,1,9,Rest,1270.0,76690.39,0.0,3.2996,0.0,0.0,0.0,0.0,0.0,0.0,0.0,0.0,0.0,0.0,0.0,0.0,2024-10-24 12:10:02,0.0,0.0,0.0,0.0,Close,0.0,,0.0,0.0,0.0002,26.3,26.3,26.6
7907,1,10,CCCV Chg,30.0,77250.39,2.181,3.3786,0.0182,18175.21,0.0182,18175.21,0.0,0.0,0.061,60968.57,0.061,60968.57,0.0,0.0,2024-10-24 12:19:22,7.3688,409.3532,409353,1549.1,Close,0.25,,0.0,0.0,0.0002,26.3,26.3,26.4
7966,1,10,CCCV Chg,620.0,77840.39,2.1811,3.7041,0.3756,375619.73,0.3756,375619.73,0.0,0.0,1.3423,1342346.84,1.3423,1342346.84,0.0,0.0,2024-10-24 12:29:12,8.0789,2884.94,2.88494e+06,1698.29,Close,5.15,,0.0,0.0001,0.0003,25.6,25.6,25.9
8025,1,10,CCCV Chg,1210.0,78430.39,2.1811,3.7281,0.7331,733064.22,0.7331,733064.22,0.0,0.0,2.6715,2671528.53,2.6715,2671528.53,0.0,0.0,2024-10-24 12:39:02,8.1312,15146.0,15146000.0,1709.31,Close,10.05,,0.0,0.0,0.0003,25.9,25.9,26.0
8084,1,10,CCCV Chg,1800.0,79020.39,2.181,3.7624,1.0905,1090511.29,1.0905,1090511.29,0.0,0.0,4.01,4010025.6,4.01,4010025.6,0.0,0.0,2024-10-24 12:48:52,8.2058,10097.3,1.00973e+07,1725.09,Close,14.96,,0.0,0.0,0.0008,25.8,25.8,26.1
8143,1,10,CCCV Chg,2390.0,79610.39,2.1809,3.7896,1.448,1447954.58,1.448,1447954.58,0.0,0.0,5.3599,5359932.8,5.3599,5359932.8,0.0,0.0,2024-10-24 12:58:42,8.2649,12117,1.2117e+07,1737.6,Close,19.86,,0.0,0.0,0.0002,25.8,25.8,26.2
8202,1,10,CCCV Chg,2980.0,80200.39,2.181,3.8074,1.8054,1805397.69,1.8054,1805397.69,0.0,0.0,6.7182,6718193.07,6.7182,6718193.07,0.0,0.0,2024-10-24 13:08:32,8.3038,30290.7,3.02907e+07,1745.74,Close,24.76,,0.0,0.0,0.0002,25.9,25.9,26.1
8261,1,10,CCCV Chg,3570.0,80790.39,2.181,3.8129,2.1628,2162843.38,2.1628,2162843.38,0.0,0.0,8.0804,8080363.38,8.0804,8080363.38,0.0,0.0,2024-10-24 13:18:22,8.3159,60584.9,60584888.889,1748.24,Close,29.66,,0.0,0.0,0.0002,25.9,25.9,26.2
8320,1,10,CCCV Chg,4160.0,81380.39,2.1811,3.8182,2.5203,2520289.42,2.5203,2520289.42,0.0,0.0,9.4441,9444105.24,9.4441,9444105.24,0.0,0.0,2024-10-24 13:28:12,8.3277,30293.3,3.02933e+07,1750.62,Close,34.57,,0.0,0.0001,0.0002,26.0,26.0,26.3
8379,1,10,CCCV Chg,4750.0,81970.39,2.181,3.8277,2.8777,2877734.76,2.8777,2877734.76,0.0,0.0,10.8104,10810439.82,10.8104,10810439.82,0.0,0.0,2024-10-24 13:38:02,8.3483,60583.1,60583111.111,1755.0,Close,39.47,,0.0,0.0,0.0001,26.0,26.2,26.3
8438,1,10,CCCV Chg,5340.0,82560.39,2.181,3.8432,3.2352,3235178.31,3.2352,3235178.31,0.0,0.0,12.1812,12181226.67,12.1812,12181226.67,0.0,0.0,2024-10-24 13:47:52,8.3819,20195.6,2.01956e+07,1762.16,Close,44.37,,0.0,0.0,0.0001,26.1,26.3,26.4
8497,1,10,CCCV Chg,5930.0,83150.39,2.1809,3.8655,3.5926,3592620.8,3.5926,3592620.8,0.0,0.0,13.5587,13558691.56,13.5587,13558691.56,0.0,0.0,2024-10-24 13:57:42,8.4304,15146.7,1.51467e+07,1772.4,Close,49.27,,0.0,0.0,0.0004,26.2,26.2,26.5
8556,1,10,CCCV Chg,6520.0,83740.39,2.1809,3.8984,3.9501,3950059.38,3.9501,3950059.38,0.0,0.0,14.9458,14945846.04,14.9458,14945846.04,0.0,0.0,2024-10-24 14:07:32,8.5021,8654.73,8.65473e+06,1787.5,Close,54.18,,0.0,0.0,0.0004,26.2,26.2,26.5
8615,1,10,CCCV Chg,7110.0,84330.39,2.1809,3.9322,4.3075,4307496.18,4.3075,4307496.18,0.0,0.0,16.3458,16345773.51,16.3458,16345773.51,0.0,0.0,2024-10-24 14:17:22,8.5755,12115.9,1.21159e+07,1803.06,Close,59.08,,0.0,0.0,0.0003,26.1,26.3,26.4
8674,1,10,CCCV Chg,7700.0,84920.39,2.1809,3.9613,4.6649,4664930.13,4.6649,4664930.13,0.0,0.0,17.7564,17756390.4,17.7564,17756390.4,0.0,0.0,2024-10-24 14:27:12,8.6394,12116.6,1.21166e+07,1816.33,Close,63.98,,0.0,0.0,0.0001,26.2,26.2,26.5
8733,1,10,CCCV Chg,8290.0,85510.39,2.1809,3.9899,5.0224,5022359.47,5.0224,5022359.47,0.0,0.0,19.1777,19177659.73,19.1777,19177659.73,0.0,0.0,2024-10-24 14:37:02,8.7017,20193.2,2.01932e+07,1829.45,Close,68.88,,0.0,0.0,0.0002,26.3,26.3,26.6
8792,1,10,CCCV Chg,8880.0,86100.39,2.1809,4.0193,5.3798,5379783.82,5.3798,5379783.82,0.0,0.0,20.6083,20608315.73,20.6083,20608315.73,0.0,0.0,2024-10-24 14:46:52,8.7655,8653.71,8.65371e+06,1842.99,Close,73.79,,0.0,0.0001,0.0002,26.5,26.5,26.8
8851,1,10,CCCV Chg,9470.0,86690.39,2.1807,4.0943,5.7372,5737191.11,5.7372,5737191.11,0.0,0.0,22.057,22056957.16,22.057,22056957.16,0.0,0.0,2024-10-24 14:56:42,8.9284,4659.97,4659965.812,1877.53,Close,78.69,,0.0,0.0,0.0003,26.1,26.1,26.5
8910,1,10,CCCV Chg,10060.0,87280.39,2.1806,4.1325,6.0946,6094571.38,6.0946,6094571.38,0.0,0.0,23.5272,23527233.42,23.5272,23527233.42,0.0,0.0,2024-10-24 15:06:32,9.0112,7572.44,7.57244e+06,1895.14,Close,83.59,,0.0,0.0,0.001,26.0,26.0,26.3
8969,1,10,CCCV Chg,10650.0,87870.39,2.1803,4.185,6.4519,6451919.64,6.4519,6451919.64,0.0,0.0,25.0131,25013139.91,25.0131,25013139.91,0.0,0.0,2024-10-24 15:16:22,9.1246,6055.82,6.05582e+06,1919.44,Close,88.49,,0.0,0.0,-0.0002,25.9,26.1,26.2
9028,1,10,CCCV Chg,11240.0,88460.39,2.1797,4.2466,6.8092,6809214.58,6.8092,6809214.58,0.0,0.0,26.519,26518971.73,26.519,26518971.73,0.0,0.0,2024-10-24 15:26:12,9.2565,5045.33,5.04533e+06,1948.21,Close,93.39,,0.0,0.0,0.0002,26.1,26.1,26.4
9087,1,10,CCCV Chg,11830.0,89050.39,2.1787,4.3324,7.1664,7166383.64,7.1664,7166383.64,0.0,0.0,28.0502,28050249.96,28.0502,28050249.96,0.0,0.0,2024-10-24 15:36:02,9.4392,4034.84,4.03484e+06,1988.49,Close,98.29,,0.0,0.0,0.0003,26.2,26.2,26.6
9146,1,10,CCCV Chg,12002.14,89222.53,1.2905,4.35,7.2623,7262311.82,7.2623,7262311.82,0.0,0.0,28.4669,28466926.93,28.4669,28466926.93,0.0,0.0,2024-10-24 15:38:54,5.6138,0.0,0.0,3370.71,Close,99.61,,0.0,0.0,-0.0001,26.0,26.2,26.6
9205,1,11,Rest,190.0,89525.17,0.0,4.3407,0.0,0.0,0.0,0.0,0.0,0.0,0.0,0.0,0.0,0.0,0.0,0.0,2024-10-24 15:43:56,0.0,0.0,0.0,0.0,Close,0.0,,0.0,0.0,0.0002,26.2,26.2,26.5
9264,1,11,Rest,780.0,90115.17,0.0,4.3348,0.0,0.0,0.0,0.0,0.0,0.0,0.0,0.0,0.0,0.0,0.0,0.0,2024-10-24 15:53:46,0.0,0.0,0.0,0.0,Close,0.0,,0.0,0.0,0.0002,26.2,26.3,26.5
9323,1,11,Rest,1370.0,90705.17,0.0,4.3322,0.0,0.0,0.0,0.0,0.0,0.0,0.0,0.0,0.0,0.0,0.0,0.0,2024-10-24 16:03:36,0.0,0.0,0.0,0.0,Close,0.0,,0.0,0.0,0.0003,26.3,26.3,26.5
9382,1,12,CC DChg,100.0,91235.17,-13.1006,4.1466,0.3639,363907.42,0.0,0.0,0.3639,363907.42,1.5265,1526460.09,0.0,0.0,1.5265,1526460.09,2024-10-24 16:12:26,-54.3231,-5351.58,-5.35158e+06,316.52,Close,5.04,,0.0,0.0001,0.0002,26.9,26.9,27.0
9441,1,12,CC DChg,690.0,91825.17,-13.1007,3.8452,2.511,2510956.44,0.0,0.0,2.511,2510956.44,10.0857,10085697.42,0.0,0.0,10.0857,10085697.42,2024-10-24 16:22:16,-50.3746,-10397.3,-1.03973e+07,293.51,Close,34.77,,0.0,0.0001,0.0001,27.8,27.8,27.9
9500,1,12,CC DChg,1280.0,92415.17,-13.1007,3.6988,4.658,4658007.11,0.0,0.0,4.658,4658007.11,18.1604,18160354.13,0.0,0.0,18.1604,18160354.13,2024-10-24 16:32:06,-48.4567,-27993.2,-2.79932e+07,282.34,Close,64.49,,0.0,0.0,0.0001,28.9,28.9,29.2
9559,1,12,CC DChg,1870.0,93005.17,-13.1005,3.5627,6.8051,6805051.73,0.0,0.0,6.8051,6805051.73,25.9979,25997920.71,0.0,0.0,25.9979,25997920.71,2024-10-24 16:41:56,-46.6732,-3603.01,-3603009.901,271.95,Close,94.22,,0.0,0.0,0.0002,31.2,31.2,31.6
9618,1,13,Rest,150.0,93269.85,0.0,3.262,0.0,0.0,0.0,0.0,0.0,0.0,0.0,0.0,0.0,0.0,0.0,0.0,2024-10-24 16:46:21,0.0,0.0,0.0,0.0,Close,0.0,,0.0,0.0,0.0003,29.7,29.9,30.0
9677,1,13,Rest,740.0,93859.85,0.0,3.3289,0.0,0.0,0.0,0.0,0.0,0.0,0.0,0.0,0.0,0.0,0.0,0.0,2024-10-24 16:56:11,0.0,0.0,0.0,0.0,Close,0.0,,0.0,0.0,-0.0003,26.5,26.5,26.9
9736,1,13,Rest,1330.0,94449.85,0.0,3.352,0.0,0.0,0.0,0.0,0.0,0.0,0.0,0.0,0.0,0.0,0.0,0.0,2024-10-24 17:06:01,0.0,0.0,0.0,0.0,Close,0.0,,0.0,0.0,0.0003,26.3,26.3,26.6
9795,1,14,CCCV Chg,90.0,95009.85,2.181,3.4768,0.0545,54525.33,0.0545,54525.33,0.0,0.0,0.1871,187101.44,0.1871,187101.44,0.0,0.0,2024-10-24 17:15:21,7.583,688.4489,688449,1594.12,Close,0.75,,0.0,0.0,0.0002,26.0,26.0,26.1
9854,1,14,CCCV Chg,680.0,95599.85,2.181,3.7132,0.412,411969.24,0.412,411969.24,0.0,0.0,1.4841,1484137.24,1.4841,1484137.24,0.0,0.0,2024-10-24 17:25:11,8.0986,12116.8,12116800.0,1702.49,Close,5.67,,0.0,0.0,0.0008,25.8,25.6,25.9
9913,1,14,CCCV Chg,1270.0,96189.85,2.181,3.7322,0.7694,769415.38,0.7694,769415.38,0.0,0.0,2.8143,2814326.4,2.8143,2814326.4,0.0,0.0,2024-10-24 17:35:01,8.1401,12116.8,12116800.0,1711.2,Close,10.59,,0.0,0.0,0.0004,25.8,25.9,26.0
9972,1,14,CCCV Chg,1860.0,96779.85,2.1811,3.7673,1.1269,1126861.78,1.1269,1126861.78,0.0,0.0,4.1547,4154676.98,4.1547,4154676.98,0.0,0.0,2024-10-24 17:44:51,8.2168,12117.2,1.21172e+07,1727.26,Close,15.51,,0.0,0.0001,0.0003,25.8,25.8,25.9
10031,1,14,CCCV Chg,2450.0,97369.85,2.1811,3.7935,1.4843,1484307.73,1.4843,1484307.73,0.0,0.0,5.506,5506023.82,5.506,5506023.82,0.0,0.0,2024-10-24 17:54:41,8.274,15145.8,1.51458e+07,1739.26,Close,20.42,,0.0,0.0,0.0002,25.7,25.7,26.0
10090,1,14,CCCV Chg,3040.0,97959.85,2.1811,3.8088,1.8418,1841750.22,1.8418,1841750.22,0.0,0.0,6.8651,6865130.67,6.8651,6865130.67,0.0,0.0,2024-10-24 18:04:29,8.3072,60584.9,6.05849e+07,1746.31,Close,25.34,,0.0,0.0,0.001,25.7,25.7,26.0
10149,1,14,CCCV Chg,3630.0,98549.85,2.181,3.8133,2.1992,2199194.13,2.1992,2199194.13,0.0,0.0,8.2275,8227482.31,8.2275,8227482.31,0.0,0.0,2024-10-24 18:14:19,8.3168,60584.9,60584888.889,1748.43,Close,30.26,,0.0,0.0,0.0001,25.9,25.9,26.3
10208,1,14,CCCV Chg,4220.0,99139.85,2.1809,3.8191,2.5566,2556640.0,2.5566,2556640.0,0.0,0.0,9.5915,9591458.84,9.5915,9591458.84,0.0,0.0,2024-10-24 18:24:09,8.3293,60583.1,60583111.111,1751.12,Close,35.18,,0.0,0.0,0.0002,26.0,26.0,26.3
10267,1,14,CCCV Chg,4810.0,99729.85,2.181,3.8296,2.9141,2914085.51,2.9141,2914085.51,0.0,0.0,10.9583,10958287.64,10.9583,10958287.64,0.0,0.0,2024-10-24 18:33:59,8.3525,20194.963,20194962.963,1755.86,Close,40.1,,0.0,0.0,0.0005,26.0,26.2,26.5
10326,1,14,CCCV Chg,5400.0,100319.85,2.181,3.846,3.2715,3271528.18,3.2715,3271528.18,0.0,0.0,12.3299,12329894.4,12.3299,12329894.4,0.0,0.0,2024-10-24 18:43:49,8.3883,20194.4,2.01944e+07,1763.38,Close,45.01,,0.0,0.0,0.0003,26.2,26.2,26.5
10385,1,14,CCCV Chg,5990.0,100909.85,2.1811,3.8696,3.629,3628970.67,3.629,3628970.67,0.0,0.0,13.7086,13708579.56,13.7086,13708579.56,0.0,0.0,2024-10-24 18:53:39,8.4398,12116.6,1.21166e+07,1774.19,Close,49.93,,0.0,0.0001,0.0002,26.2,26.4,26.5
10444,1,14,CCCV Chg,6580.0,101499.85,2.1809,3.9046,3.9864,3986411.73,3.9864,3986411.73,0.0,0.0,15.0976,15097580.09,15.0976,15097580.09,0.0,0.0,2024-10-24 19:03:29,8.5155,8654.73,8.65473e+06,1790.37,Close,54.85,,0.0,0.0,0.0002,26.1,26.3,26.6
10503,1,14,CCCV Chg,7170.0,102089.85,2.181,3.9368,4.3438,4343849.96,4.3438,4343849.96,0.0,0.0,16.4994,16499416.18,16.4994,16499416.18,0.0,0.0,2024-10-24 19:13:19,8.586,15144.9,1.51449e+07,1805.07,Close,59.77,,0.0,0.0,0.0002,26.2,26.3,26.6
10562,1,14,CCCV Chg,7760.0,102679.85,2.1809,3.9664,4.7013,4701284.27,4.7013,4701284.27,0.0,0.0,17.9118,17911763.91,17.9118,17911763.91,0.0,0.0,2024-10-24 19:23:09,8.6504,12116.6,1.21166e+07,1818.67,Close,64.69,,0.0,0.0001,-0.0004,26.2,26.2,26.6
10621,1,14,CCCV Chg,8350.0,103269.85,2.181,3.9936,5.0587,5058713.24,5.0587,5058713.24,0.0,0.0,19.3347,19334677.33,19.3347,19334677.33,0.0,0.0,2024-10-24 19:32:59,8.7099,15146.7,1.51467e+07,1831.11,Close,69.61,,0.0,0.0,0.0002,26.3,26.3,26.7
10680,1,14,CCCV Chg,8940.0,103859.85,2.1809,4.0278,5.4161,5416135.47,5.4161,5416135.47,0.0,0.0,20.7672,20767213.51,20.7672,20767213.51,0.0,0.0,2024-10-24 19:42:49,8.7841,6730.67,6.73067e+06,1846.88,Close,74.52,,0.0,0.0,0.0001,26.4,26.4,26.7
10739,1,14,CCCV Chg,9530.0,104449.85,2.1808,4.1038,5.7735,5773540.62,5.7735,5773540.62,0.0,0.0,22.2204,22220427.38,22.2204,22220427.38,0.0,0.0,2024-10-24 19:52:39,8.9494,8653.21,8.65321e+06,1881.83,Close,79.44,,0.0,0.0001,0.0002,26.0,26.2,26.3
10798,1,14,CCCV Chg,10120.0,105039.85,2.1806,4.1405,6.1309,6130917.69,6.1309,6130917.69,0.0,0.0,23.6928,23692827.02,23.6928,23692827.02,0.0,0.0,2024-10-24 20:02:29,9.0286,6729.48,6.72948e+06,1898.83,Close,84.36,,0.0,-0.0001,0.0003,25.9,25.9,26.3
10857,1,14,CCCV Chg,10710.0,105629.85,2.1802,4.1939,6.4883,6488262.4,6.4883,6488262.4,0.0,0.0,25.1818,25181769.96,25.1818,25181769.96,0.0,0.0,2024-10-24 20:12:19,9.1435,6729.48,6.72948e+06,1923.63,Close,89.28,,0.0,0.0,0.0003,26.2,26.2,26.3
10916,1,14,CCCV Chg,11300.0,106219.85,2.1797,4.2579,6.8455,6845542.4,6.8455,6845542.4,0.0,0.0,26.6911,26691057.78,26.6911,26691057.78,0.0,0.0,2024-10-24 20:22:09,9.2809,5045.93,5.04593e+06,1953.45,Close,94.19,,0.0,0.0001,0.0003,26.2,26.2,26.3
10975,1,14,CCCV Chg,11890.0,106809.85,2.1784,4.3469,7.2027,7202681.6,7.2027,7202681.6,0.0,0.0,28.2271,28227106.13,28.2271,28227106.13,0.0,0.0,2024-10-24 20:31:59,9.4692,4322.03,4322031.746,1995.47,Close,99.11,,0.0,0.0,0.0002,26.1,26.3,26.6
11034,1,14,CCCV Chg,11987.63,106907.48,1.0941,4.35,7.2473,7247315.91,7.2473,7247315.91,0.0,0.0,28.4212,28421248.0,28.4212,28421248.0,0.0,0.0,2024-10-24 20:33:37,4.7593,0.0,0.0,3975.87,Close,99.72,,0.0,0.0,0.0002,26.3,26.3,26.4
11093,1,15,Rest,300.0,107294.34,0.0,4.3391,0.0,0.0,0.0,0.0,0.0,0.0,0.0,0.0,0.0,0.0,0.0,0.0,2024-10-24 20:40:04,0.0,0.0,0.0,0.0,Close,0.0,,0.0,0.0,0.0002,26.2,26.4,26.6
11152,1,15,Rest,890.0,107884.34,0.0,4.3345,0.0,0.0,0.0,0.0,0.0,0.0,0.0,0.0,0.0,0.0,0.0,0.0,2024-10-24 20:49:54,0.0,0.0,0.0,0.0,Close,0.0,,0.0,0.0,0.0001,26.2,26.2,26.6
11211,1,15,Rest,1480.0,108474.34,0.0,4.3324,0.0,0.0,0.0,0.0,0.0,0.0,0.0,0.0,0.0,0.0,0.0,0.0,2024-10-24 20:59:44,0.0,0.0,0.0,0.0,Close,0.0,,0.0,0.0,0.0003,26.2,26.4,26.5
11270,1,16,CC DChg,150.0,108944.34,-32.7529,3.9125,1.3647,1364697.24,0.0,0.0,1.3647,1364697.24,5.4736,5473554.49,0.0,0.0,5.4736,5473554.49,2024-10-24 21:07:34,-128.1456,-7710.15,-7.71015e+06,119.46,Close,18.97,,0.0,0.0,0.0003,30.9,30.3,30.6
11329,1,16,CC DChg,740.0,109534.34,-32.7531,3.4895,6.7325,6732513.42,0.0,0.0,6.7325,6732513.42,25.2174,25217447.82,0.0,0.0,25.2174,25217447.82,2024-10-24 21:17:24,-114.2918,-5351.7,-5351696.732,106.54,Close,93.59,,0.0,0.0,0.0002,39.3,38.9,38.9
11388,1,17,Rest,180.0,109765.04,0.0,3.3388,0.0,0.0,0.0,0.0,0.0,0.0,0.0,0.0,0.0,0.0,0.0,0.0,2024-10-24 21:21:15,0.0,0.0,0.0,0.0,Close,0.0,,0.0,0.0,0.0002,33.7,33.9,34.0
11447,1,17,Rest,770.0,110355.04,0.0,3.3922,0.0,0.0,0.0,0.0,0.0,0.0,0.0,0.0,0.0,0.0,0.0,0.0,2024-10-24 21:31:05,0.0,0.0,0.0,0.0,Close,0.0,,0.0,0.0001,-0.0001,27.0,27.0,27.3
11506,1,17,Rest,1360.0,110945.04,0.0,3.4101,0.0,0.0,0.0,0.0,0.0,0.0,0.0,0.0,0.0,0.0,0.0,0.0,2024-10-24 21:40:55,0.0,0.0,0.0,0.0,Close,0.0,,0.0,0.0,0.0002,26.3,26.3,26.6
11565,1,19,CCCV Chg,120.0,111505.04,2.181,3.5603,0.0727,72700.47,0.0727,72700.47,0.0,0.0,0.256,255955.13,0.256,255955.13,0.0,0.0,2024-10-25 07:59:08,7.7649,1044.545,1.04455e+06,1632.45,Close,1.01,,0.0,0.0001,-0.0002,25.8,26.0,26.1
11624,1,19,CCCV Chg,710.0,112095.04,2.181,3.7171,0.4301,430144.62,0.4301,430144.62,0.0,0.0,1.567,1567022.4,1.567,1567022.4,0.0,0.0,2024-10-25 08:08:58,8.1071,30291.8,3.02918e+07,1704.29,Close,5.96,,0.0,0.0,0.0002,25.7,25.7,26.0
11683,1,19,CCCV Chg,1300.0,112685.04,2.1811,3.7397,0.7876,787589.33,0.7876,787589.33,0.0,0.0,2.899,2898986.13,2.899,2898986.13,0.0,0.0,2024-10-25 08:18:48,8.1565,10097.3,1.00973e+07,1714.63,Close,10.9,,0.0,0.0,0.0002,25.7,25.9,26.1
11742,1,19,CCCV Chg,1890.0,113275.04,2.181,3.774,1.145,1145032.53,1.145,1145032.53,0.0,0.0,4.2421,4242135.82,4.2421,4242135.82,0.0,0.0,2024-10-25 08:28:38,8.2312,12116.6,1.21166e+07,1730.38,Close,15.85,,0.0,0.0,0.0001,25.7,25.9,26.0
11801,1,19,CCCV Chg,2480.0,113865.04,2.181,3.7988,1.5025,1502479.11,1.5025,1502479.11,0.0,0.0,5.5956,5595600.71,5.5956,5595600.71,0.0,0.0,2024-10-25 08:38:28,8.2853,15146.2,1.51462e+07,1741.75,Close,20.8,,0.0,0.0,0.0002,25.8,26.0,26.1
11860,1,19,CCCV Chg,3070.0,114455.04,2.181,3.8108,1.8599,1859924.09,1.8599,1859924.09,0.0,0.0,6.9559,6955928.89,6.9559,6955928.89,0.0,0.0,2024-10-25 08:48:18,8.3115,0.0,0.0,1747.25,Close,25.75,,0.0,0.0,0.0002,25.8,26.0,26.2
11919,1,19,CCCV Chg,3660.0,115045.04,2.181,3.8148,2.2174,2217368.36,2.2174,2217368.36,0.0,0.0,8.3188,8318781.16,8.3188,8318781.16,0.0,0.0,2024-10-25 08:58:08,8.3202,60583.1,6.05831e+07,1749.08,Close,30.7,,0.0,0.0001,-0.0005,26.0,26.0,26.3
11978,1,19,CCCV Chg,4250.0,115635.04,2.181,3.8213,2.5748,2574811.91,2.5748,2574811.91,0.0,0.0,9.6834,9683406.93,9.6834,9683406.93,0.0,0.0,2024-10-25 09:07:57,8.3344,60583.1,6.05831e+07,1752.06,Close,35.65,,0.0,0.0001,-0.0005,26.1,26.1,26.2
12037,1,19,CCCV Chg,4840.0,116225.04,2.181,3.8327,2.9323,2932253.69,2.9323,2932253.69,0.0,0.0,11.0512,11051180.8,11.0512,11051180.8,0.0,0.0,2024-10-25 09:17:47,8.3592,30290.7,3.02907e+07,1757.29,Close,40.6,,0.0,0.0,0.0001,26.1,26.1,26.4
12096,1,19,CCCV Chg,5430.0,116815.04,2.181,3.85,3.2897,3289695.29,3.2897,3289695.29,0.0,0.0,12.4241,12424058.31,12.4241,12424058.31,0.0,0.0,2024-10-25 09:27:37,8.397,20193.2,2.01932e+07,1765.22,Close,45.54,,0.0,0.0,0.0003,26.1,26.1,26.5
12155,1,19,CCCV Chg,6020.0,117405.04,2.181,3.8752,3.6471,3647138.49,3.6471,3647138.49,0.0,0.0,13.8044,13804425.96,13.8044,13804425.96,0.0,0.0,2024-10-25 09:37:27,8.4519,12116.6,1.21166e+07,1776.78,Close,50.49,,0.0,0.0,0.0003,26.1,26.2,26.5
12214,1,19,CCCV Chg,6610.0,117995.04,2.1809,3.9118,4.0046,4004579.91,4.0046,4004579.91,0.0,0.0,15.1959,15195855.64,15.1959,15195855.64,0.0,0.0,2024-10-25 09:47:17,8.5314,10096.6,1.00966e+07,1793.63,Close,55.44,,0.0,0.0,0.0003,26.2,26.2,26.5
12273,1,19,CCCV Chg,7200.0,118585.04,2.181,3.9412,4.362,4362016.0,4.362,4362016.0,0.0,0.0,16.5995,16599539.2,16.5995,16599539.2,0.0,0.0,2024-10-25 09:57:07,8.5956,15146.7,1.51467e+07,1807.09,Close,60.39,,0.0,0.0,0.0008,26.2,26.2,26.4
12332,1,19,CCCV Chg,7790.0,119175.04,2.1809,3.9712,4.7194,4719447.82,4.7194,4719447.82,0.0,0.0,18.0135,18013513.96,18.0135,18013513.96,0.0,0.0,2024-10-25 10:06:57,8.661,12116.6,1.21166e+07,1820.86,Close,65.34,,0.0,0.0001,-0.0001,26.2,26.2,26.6
12391,1,19,CCCV Chg,8380.0,119765.04,2.1809,3.9972,5.0769,5076875.38,5.0769,5076875.38,0.0,0.0,19.4379,19437890.84,19.4379,19437890.84,0.0,0.0,2024-10-25 10:16:47,8.7174,15144.0,15144000.0,1832.85,Close,70.29,,0.0,0.0,0.0002,26.4,26.4,26.8
12450,1,19,CCCV Chg,8970.0,120355.04,2.1809,4.0373,5.4343,5434295.11,5.4343,5434295.11,0.0,0.0,20.8725,20872484.98,20.8725,20872484.98,0.0,0.0,2024-10-25 10:26:37,8.8048,5507.23,5.50723e+06,1851.24,Close,75.23,,0.0,0.0001,0.0003,26.5,26.7,26.8
12509,1,19,CCCV Chg,9560.0,120945.04,2.1807,4.1088,5.7917,5791693.51,5.7917,5791693.51,0.0,0.0,22.3297,22329683.91,22.3297,22329683.91,0.0,0.0,2024-10-25 10:36:27,8.9601,12115.9,1.21159e+07,1884.17,Close,80.18,,0.0,0.0,0.0002,26.1,26.1,26.3
12568,1,19,CCCV Chg,10150.0,121535.04,2.1805,4.1483,6.1491,6149066.67,6.1491,6149066.67,0.0,0.0,23.8041,23804124.44,23.8041,23804124.44,0.0,0.0,2024-10-25 10:46:17,9.0454,6729.48,6.72948e+06,1902.45,Close,85.13,,0.0,0.0,0.0,26.2,26.2,26.4
12627,1,19,CCCV Chg,10740.0,122125.04,2.1802,4.203,6.5064,6506403.56,6.5064,6506403.56,0.0,0.0,25.296,25296028.44,25.296,25296028.44,0.0,0.0,2024-10-25 10:56:07,9.1633,6055.82,6.05582e+06,1927.81,Close,90.08,,0.0,0.0,0.0003,26.2,26.2,26.3
12686,1,19,CCCV Chg,11330.0,122715.04,2.1795,4.2712,6.8637,6863669.33,6.8637,6863669.33,0.0,0.0,26.8091,26809096.53,26.8091,26809096.53,0.0,0.0,2024-10-25 11:05:57,9.309,4324.57,4.32457e+06,1959.72,Close,95.02,,0.0,0.0,0.0009,26.2,26.3,26.4
12745,1,19,CCCV Chg,11843.48,123228.52,2.0116,4.35,7.1744,7174357.33,7.1744,7174357.33,0.0,0.0,28.1484,28148374.76,28.1484,28148374.76,0.0,0.0,2024-10-25 11:14:31,8.7506,0.0,0.0,2162.41,Close,99.32,,0.0,0.0001,-0.0001,26.3,26.2,26.4
12804,1,19,CCCV Chg,11940.0,123325.04,0.9293,4.35,7.2104,7210390.76,7.2104,7210390.76,0.0,0.0,28.3051,28305123.56,28.3051,28305123.56,0.0,0.0,2024-10-25 11:16:07,4.0427,0.0,0.0,4680.69,Close,99.82,,0.0,0.0,0.0002,26.3,26.3,26.4
12863,1,20,Rest,400.0,123784.11,0.0,4.3388,0.0,0.0,0.0,0.0,0.0,0.0,0.0,0.0,0.0,0.0,0.0,0.0,2024-10-25 11:23:46,0.0,0.0,0.0,0.0,Close,0.0,,0.0,0.0,0.0002,26.3,26.3,26.4
12922,1,20,Rest,990.0,124374.11,0.0,4.3354,0.0,0.0,0.0,0.0,0.0,0.0,0.0,0.0,0.0,0.0,0.0,0.0,2024-10-25 11:33:36,0.0,0.0,0.0,0.0,Close,0.0,,0.0,0.0,0.0009,26.3,26.3,26.4
12981,1,20,Rest,1580.0,124964.11,0.0,4.3338,0.0,0.0,0.0,0.0,0.0,0.0,0.0,0.0,0.0,0.0,0.0,0.0,2024-10-25 11:43:26,0.0,0.0,0.0,0.0,Close,0.0,,0.0,0.0001,0.0002,26.3,26.3,26.4
13040,1,21,CC DChg,200.0,125384.11,-59.4608,3.634,3.3034,3303372.44,0.0,0.0,3.3034,3303372.44,12.5109,12510934.76,0.0,0.0,12.5109,12510934.76,2024-10-25 11:50:26,-216.0805,-15153.2,-1.51532e+07,61.12,Close,46.07,,0.0,0.0,0.0009,40.5,37.7,37.4
13084,1,21,CC DChg,434.1,125618.21,-59.4614,2.9997,7.17,7169987.56,0.0,0.0,7.17,7169987.56,26.0986,26098588.44,0.0,0.0,26.0986,26098588.44,2024-10-25 11:54:20,-178.3664,-333.5385,-333538,50.45,Close,100.0,,0.0,0.0,0.0002,52.5,50.2,50.4